File: Version_on_OGprivaterepo/Data/Raman/KL_SWRZ_060524/Spectra/18 KL0919-003-A-meltfilm_CRR_DiadFit.txt
1042.41	693.75
1042.98	694.0
1043.55	695.0
1044.11	695.25
1044.68	693.75
1045.25	693.25
1045.81	695.5
1046.38	687.25
1046.94	688.75
1047.51	689.25
1048.08	689.0
1048.64	693.25
1049.21	691.5
1049.77	687.0
1050.34	692.25
1050.91	691.0
1051.47	687.25
1052.04	685.25
1052.6	686.25
1053.17	689.0
1053.73	687.75
1054.3	687.0
1054.86	687.5
1055.43	685.25
1055.99	688.25
1056.56	685.25
1057.12	686.25
1057.69	687.5
1058.25	685.25
1058.82	689.25
1059.38	679.75
1059.95	684.5
1060.51	684.25
1061.08	684.75
1061.64	684.25
1062.21	688.0
1062.77	683.25
1063.34	681.25
1063.9	684.5
1064.46	684.25
1065.03	688.25
1065.59	689.5
1066.16	684.25
1066.72	683.25
1067.29	684.25
1067.85	680.0
1068.41	683.75
1068.98	680.25
1069.54	686.0
1070.1	690.0
1070.67	685.75
1071.23	682.25
1071.8	685.5
1072.36	680.0
1072.92	682.75
1073.49	686.5
1074.05	680.5
1074.61	684.25
1075.18	684.75
1075.74	683.75
1076.3	683.25
1076.86	682.5
1077.43	687.0
1077.99	685.0
1078.55	681.75
1079.12	680.0
1079.68	683.75
1080.24	681.25
1080.8	684.0
1081.37	678.25
1081.93	683.25
1082.49	689.0
1083.05	682.5
1083.62	684.75
1084.18	684.25
1084.74	683.25
1085.3	682.75
1085.87	681.5
1086.43	681.5
1086.99	683.0
1087.55	681.5
1088.11	682.25
1088.67	681.25
1089.24	681.25
1089.8	684.75
1090.36	683.25
1090.92	683.25
1091.48	682.5
1092.04	682.75
1092.61	676.5
1093.17	682.25
1093.73	684.75
1094.29	686.0
1094.85	679.0
1095.41	688.5
1095.97	683.0
1096.53	685.25
1097.1	691.5
1097.66	678.25
1098.22	681.0
1098.78	681.25
1099.34	680.5
1099.9	681.25
1100.46	684.0
1101.02	684.0
1101.58	679.5
1102.14	677.5
1102.7	681.75
1103.26	680.5
1103.82	684.5
1104.38	680.75
1104.94	677.75
1105.5	681.75
1106.06	685.0
1106.62	683.25
1107.18	682.75
1107.74	678.5
1108.3	680.0
1108.86	681.75
1109.42	681.75
1109.98	683.25
1110.54	680.0
1111.1	684.5
1111.66	683.0
1112.22	684.75
1112.78	681.5
1113.34	684.25
1113.9	681.0
1114.46	682.0
1115.02	679.5
1115.57	685.0
1116.13	680.75
1116.69	682.0
1117.25	683.25
1117.81	682.0
1118.37	681.25
1118.93	681.25
1119.49	679.0
1120.04	683.5
1120.603	681.0
1121.16	681.0
1121.72	680.75
1122.28	683.0
1122.84	680.5
1123.39	680.5
1123.95	681.25
1124.51	681.5
1125.07	687.75
1125.63	680.75
1126.19	683.25
1126.74	684.0
1127.3	680.75
1127.86	683.75
1128.42	683.5
1128.97	687.75
1129.53	687.0
1130.09	688.0
1130.65	685.75
1131.2	683.75
1131.76	682.0
1132.32	683.75
1132.88	682.5
1133.43	684.0
1133.99	680.75
1134.55	680.75
1135.1	682.25
1135.66	680.0
1136.22	683.5
1136.78	680.5
1137.33	682.0
1137.89	684.0
1138.45	680.25
1139	680.75
1139.56	677.25
1140.12	677.5
1140.67	678.5
1141.23	684.5
1141.78	678.75
1142.34	682.5
1142.9	682.5
1143.45	677.75
1144.01	679.25
1144.57	683.5
1145.12	680.75
1145.68	681.0
1146.23	681.0
1146.79	681.0
1147.35	680.5
1147.9	678.25
1148.46	679.0
1149.01	676.75
1149.57	680.25
1150.12	679.75
1150.68	681.0
1151.23	683.25
1151.79	682.75
1152.34	681.25
1152.9	679.5
1153.46	678.25
1154.01	676.5
1154.57	682.0
1155.12	682.25
1155.68	680.25
1156.23	683.25
1156.78	683.0
1157.34	677.5
1157.89	680.5
1158.45	682.25
1159	680.5
1159.56	686.75
1160.11	680.5
1160.67	684.0
1161.22	684.75
1161.78	681.5
1162.33	681.0
1162.88	683.0
1163.44	681.25
1163.99	681.0
1164.55	681.75
1165.1	679.75
1165.65	681.5
1166.21	679.0
1166.76	681.25
1167.32	681.25
1167.87	677.75
1168.42	679.0
1168.98	681.0
1169.53	678.0
1170.08	684.25
1170.64	678.75
1171.19	679.75
1171.74	681.0
1172.3	679.25
1172.85	683.75
1173.4	680.5
1173.96	685.0
1174.51	684.25
1175.06	680.0
1175.61	679.75
1176.17	682.5
1176.72	675.75
1177.27	681.0
1177.83	681.0
1178.38	682.75
1178.93	675.25
1179.48	678.25
1180.04	681.25
1180.59	680.5
1181.14	678.75
1181.69	679.5
1182.24	681.5
1182.8	679.5
1183.35	679.25
1183.9	678.25
1184.45	681.25
1185	679.5
1185.56	678.5
1186.11	680.0
1186.66	678.25
1187.21	679.0
1187.76	675.75
1188.31	684.0
1188.87	677.5
1189.42	677.0
1189.97	678.0
1190.52	679.5
1191.07	678.75
1191.62	680.5
1192.17	680.25
1192.72	681.75
1193.28	697.75
1193.83	677.25
1194.38	681.0
1194.93	682.5
1195.48	682.0
1196.03	680.0
1196.58	677.0
1197.13	682.5
1197.68	680.25
1198.23	683.0
1198.78	677.0
1199.33	680.5
1199.88	682.0
1200.43	678.5
1200.98	680.75
1201.53	674.75
1202.09	680.0
1202.64	678.5
1203.19	683.25
1203.74	679.25
1204.29	683.75
1204.83	681.75
1205.38	681.25
1205.93	682.25
1206.48	682.25
1207.03	681.0
1207.58	682.0
1208.13	682.25
1208.68	683.0
1209.23	681.75
1209.78	677.0
1210.33	678.75
1210.88	683.5
1211.43	682.5
1211.98	683.25
1212.53	682.5
1213.08	680.5
1213.62	681.5
1214.17	680.25
1214.72	679.5
1215.27	684.0
1215.82	677.0
1216.37	680.25
1216.92	684.75
1217.47	680.25
1218.01	681.0
1218.56	679.25
1219.11	680.25
1219.66	683.25
1220.21	682.5
1220.76	682.0
1221.3	680.0
1221.85	679.5
1222.4	678.25
1222.95	679.75
1223.5	680.25
1224.04	682.0
1224.59	682.25
1225.14	680.75
1225.69	679.25
1226.23	684.0
1226.78	683.5
1227.33	684.25
1227.88	681.75
1228.42	679.25
1228.97	682.0
1229.52	679.25
1230.07	683.25
1230.61	683.5
1231.16	682.75
1231.71	685.25
1232.26	682.0
1232.8	684.0
1233.35	682.5
1233.9	683.25
1234.44	684.25
1234.99	678.75
1235.54	684.5
1236.08	682.75
1236.63	683.25
1237.18	682.75
1237.72	684.5
1238.27	684.5
1238.81	682.0
1239.36	682.75
1239.91	680.5
1240.45	685.0
1241	686.5
1241.55	684.5
1242.09	682.75
1242.64	684.5
1243.18	686.0
1243.73	685.75
1244.28	687.0
1244.82	685.0
1245.37	685.25
1245.91	685.0
1246.46	679.75
1247	687.5
1247.55	687.75
1248.09	689.5
1248.64	686.5
1249.18	684.5
1249.73	691.25
1250.27	689.5
1250.82	687.5
1251.36	689.0
1251.91	687.0
1252.45	685.0
1253	687.25
1253.54	684.75
1254.09	686.5
1254.63	681.25
1255.18	684.0
1255.72	686.0
1256.27	682.5
1256.81	689.75
1257.36	688.0
1257.9	686.0
1258.45	686.0
1258.99	693.0
1259.53	692.5
1260.08	707.75
1260.62	693.5
1261.17	690.5
1261.71	689.25
1262.25	690.5
1262.8	691.75
1263.34	700.5
1263.89	704.25
1264.43	717.5
1264.97	745.0
1265.52	770.0
1266.06	770.25
1266.6	727.5
1267.15	708.75
1267.69	700.75
1268.23	694.5
1268.78	689.75
1269.32	694.0
1269.86	694.0
1270.41	689.5
1270.95	688.75
1271.49	688.5
1272.03	692.75
1272.58	689.25
1273.12	689.0
1273.66	689.5
1274.21	687.75
1274.75	687.0
1275.29	690.75
1275.83	689.5
1276.38	692.25
1276.92	692.0
1277.46	688.5
1278	694.25
1278.54	692.75
1279.09	695.75
1279.63	689.75
1280.17	695.25
1280.71	698.0
1281.25	699.75
1281.8	697.75
1282.34	709.5
1282.88	713.5
1283.42	733.5
1283.96	766.75
1284.51	861.5
1285.05	1155.0
1285.59	1797.0
1286.13	1953.0
1286.67	1239.5
1287.21	857.75
1287.75	748.5
1288.29	724.75
1288.84	714.75
1289.38	704.75
1289.92	701.75
1290.46	700.75
1291	695.75
1291.54	698.0
1292.08	694.25
1292.62	693.5
1293.16	690.25
1293.7	690.0
1294.24	690.75
1294.78	688.5
1295.33	691.5
1295.87	688.0
1296.41	692.25
1296.95	690.25
1297.49	686.25
1298.03	688.25
1298.57	691.0
1299.11	691.25
1299.65	689.0
1300.19	689.25
1300.73	688.0
1301.27	689.0
1301.81	687.25
1302.35	692.5
1302.89	688.75
1303.43	687.0
1303.97	688.0
1304.5	689.5
1305.04	684.25
1305.58	688.25
1306.12	691.5
1306.66	691.0
1307.2	685.5
1307.74	689.75
1308.28	687.25
1308.82	682.5
1309.36	687.5
1309.9	690.5
1310.44	689.25
1310.97	685.75
1311.51	686.25
1312.05	689.0
1312.59	688.25
1313.13	683.75
1313.67	687.5
1314.21	686.25
1314.74	684.5
1315.28	686.75
1315.82	687.75
1316.36	684.5
1316.9	687.25
1317.44	689.25
1317.97	682.75
1318.51	687.5
1319.05	685.75
1319.59	687.5
1320.13	686.0
1320.66	687.0
1321.2	687.0
1321.74	685.25
1322.28	683.75
1322.81	685.5
1323.35	683.25
1323.89	694.75
1324.43	684.25
1324.96	687.5
1325.5	685.0
1326.04	687.0
1326.58	685.5
1327.11	691.0
1327.65	687.5
1328.19	684.0
1328.72	679.75
1329.26	683.25
1329.8	686.25
1330.34	681.75
1330.87	686.75
1331.41	685.25
1331.95	684.75
1332.48	683.75
1333.02	686.5
1333.56	690.25
1334.09	687.0
1334.63	685.0
1335.16	687.75
1335.7	687.75
1336.24	683.5
1336.77	686.5
1337.31	687.5
1337.85	685.75
1338.38	684.75
1338.92	687.75
1339.45	684.25
1339.99	685.75
1340.52	686.25
1341.06	687.0
1341.6	682.0
1342.13	687.5
1342.67	685.0
1343.2	682.25
1343.74	686.75
1344.27	685.25
1344.81	684.0
1345.34	687.25
1345.88	687.5
1346.41	688.0
1346.95	686.0
1347.48	685.5
1348.02	682.25
1348.55	684.0
1349.09	687.25
1349.62	687.0
1350.16	681.5
1350.69	685.75
1351.23	686.5
1351.76	686.5
1352.3	685.5
1352.83	686.5
1353.37	680.75
1353.9	686.25
1354.43	687.0
1354.97	686.75
1355.5	685.0
1356.04	686.25
1356.57	685.0
1357.11	688.0
1357.64	688.0
1358.17	690.5
1358.71	689.75
1359.24	685.25
1359.77	684.25
1360.31	690.25
1360.84	689.0
1361.38	685.75
1361.91	687.0
1362.44	688.0
1362.98	688.0
1363.51	689.5
1364.04	687.25
1364.58	688.5
1365.11	685.0
1365.64	683.5
1366.18	689.75
1366.71	691.5
1367.24	693.5
1367.77	689.5
1368.31	689.75
1368.84	687.0
1369.37	689.0
1369.91	691.25
1370.44	706.0
1370.97	733.25
1371.5	716.75
1372.04	693.25
1372.57	688.5
1373.1	686.25
1373.63	684.75
1374.17	690.25
1374.7	688.0
1375.23	687.5
1375.76	688.5
1376.29	696.0
1376.83	686.5
1377.36	691.25
1377.89	689.25
1378.42	690.0
1378.95	694.0
1379.48	690.5
1380.02	693.25
1380.55	692.75
1381.08	696.5
1381.61	695.0
1382.14	693.25
1382.67	700.5
1383.21	703.25
1383.74	700.5
1384.27	702.5
1384.8	706.0
1385.33	709.25
1385.86	718.25
1386.39	735.5
1386.92	757.5
1387.45	794.75
1387.98	911.0
1388.51	1459.5
1389.05	2930.5
1389.58	2746.0
1390.11	1289.5
1390.64	852.25
1391.17	763.75
1391.7	739.0
1392.23	721.5
1392.76	713.5
1393.29	705.25
1393.82	702.0
1394.35	696.0
1394.88	696.5
1395.41	694.5
1395.94	695.0
1396.47	696.25
1397	696.75
1397.53	693.25
1398.06	690.0
1398.59	694.75
1399.12	694.25
1399.65	689.25
1400.18	695.0
1400.71	691.5
1401.24	691.25
1401.77	692.0
1402.29	684.0
1402.82	686.5
1403.35	691.5
1403.88	688.0
1404.41	692.5
1404.94	692.0
1405.47	692.0
1406	691.0
1406.53	692.75
1407.06	691.75
1407.59	695.75
1408.11	699.5
1408.64	709.75
1409.17	722.25
1409.7	751.0
1410.23	812.25
1410.76	858.25
1411.28	787.0
1411.81	731.75
1412.34	707.75
1412.87	696.75
1413.4	691.0
1413.93	691.0
1414.45	693.25
1414.98	688.25
1415.51	702.0
1416.04	687.5
1416.57	685.5
1417.09	687.25
1417.62	689.25
1418.15	689.0
1418.68	688.5
1419.2	687.75
1419.73	686.25
1420.26	685.0
1420.79	684.0
1421.31	683.75
1421.84	681.75
1422.37	686.25
1422.89	688.25
1423.42	687.0
1423.95	688.25
1424.48	691.25
1425	688.75
1425.53	685.75
1426.06	691.0
1426.58	691.5
1427.11	695.5
1427.64	688.0
1428.16	691.75
1428.69	684.0
1429.22	686.25
1429.74	682.0
1430.27	686.0
1430.8	685.25
1431.32	684.25
1431.85	684.5
1432.37	685.75
1432.9	683.75
1433.43	685.25
1433.95	678.75
1434.48	685.5
1435	686.75
1435.53	679.5
1436.06	681.75
1436.58	683.75
1437.11	685.25
1437.63	682.0
1438.16	683.25
1438.68	683.25
1439.21	681.5
1439.73	685.75
1440.26	682.25
1440.78	681.5
1441.31	682.25
1441.84	682.25
1442.36	682.5
1442.89	681.5
1443.41	682.75
1443.94	682.0
1444.46	678.25
1444.99	680.75
1445.51	682.75
1446.03	683.25
1446.56	680.25
1447.08	684.75
1447.61	684.0
1448.13	683.5
1448.66	681.5
1449.18	682.5
1449.71	682.25
1450.23	678.75
1450.75	681.0
1451.28	682.0
1451.8	679.75
1452.33	683.5
1452.85	675.75
1453.37	682.5
1453.9	681.5
1454.42	680.0
1454.95	680.5
1455.47	679.75
1455.99	682.5
1456.52	677.5
1457.04	678.0
1457.56	676.5
1458.09	681.25
1458.61	678.5
1459.13	677.0
1459.66	681.5
1460.18	680.5
1460.7	675.75
1461.23	679.25
1461.75	677.25
1462.27	676.75
1462.8	683.0
1463.32	727.75
1463.84	718.5
1464.36	685.75
1464.89	678.75
1465.41	680.0
1465.93	677.0
1466.46	676.75
1466.978	677.25
1467.5	681.5
1468.02	682.25
1468.55	681.0
1469.07	680.75
1469.59	681.75
1470.11	679.0
1470.63	679.5
1471.16	678.25
1471.68	678.75
1472.2	675.5
1472.72	682.25
1473.24	675.5
1473.77	679.0
1474.29	677.0
1474.81	677.75
1475.33	677.5
1475.85	677.0
1476.37	676.75
1476.9	680.0
1477.42	677.75
1477.94	679.0
1478.46	680.5
1478.98	677.25
1479.5	681.5
1480.02	681.0
1480.54	679.75
1481.07	678.75
1481.59	675.75
1482.11	678.5
1482.63	676.75
1483.15	679.0
1483.67	676.5
1484.19	679.5
1484.71	678.25
1485.23	678.5
1485.75	676.25
1486.27	678.5
1486.79	675.0
1487.31	677.75
1487.83	678.75
1488.35	675.5
1488.87	677.75
1489.39	678.5
1489.91	677.75
1490.43	677.75
1490.95	680.5
1491.47	675.75
1491.99	675.75
1492.51	674.0
1493.03	677.75
1493.55	679.0
1494.07	675.75
1494.59	679.5
1495.11	677.75
1495.63	676.0
1496.15	676.25
1496.67	676.75
1497.19	679.5
1497.71	676.25
1498.23	675.75
1498.75	679.0
1499.27	678.5
1499.79	681.25
1500.3	675.75
1500.82	677.5
1501.34	677.25
1501.86	680.0
1502.38	675.0
1502.9	675.0
1503.42	676.75
1503.94	677.0
1504.45	674.75
1504.97	676.25
1505.49	680.25
1506.01	677.5
1506.53	678.75
1507.05	675.75
1507.56	679.5
1508.08	676.0
1508.6	675.5
1509.12	680.5
1509.64	675.5
1510.16	680.75
1510.67	689.25
1511.19	677.0
1511.71	673.75
1512.23	678.25
1512.74	677.25
1513.26	676.0
1513.78	678.75
1514.3	679.5
1514.81	678.5
1515.33	677.25
1515.85	675.5
1516.37	678.25
1516.88	678.5
1517.4	677.5
1517.92	678.25
1518.44	676.5
1518.95	679.5
1519.47	676.25
1519.99	679.0
1520.5	674.75
1521.02	679.5
1521.54	678.75
1522.05	679.75
1522.57	675.25
1523.09	678.5
1523.6	677.25
1524.12	680.5
1524.64	678.75
1525.15	679.25
1525.67	682.75
1526.19	700.5
1527.22	686.5
1527.73	679.5
1528.25	678.5
1528.77	676.5
1529.28	677.25
1529.8	676.0
1530.31	678.5
1530.83	677.5
1531.34	680.25
1531.86	679.75
1532.38	677.5
1532.89	680.25
1533.41	680.5
1533.92	679.75
1534.44	676.0
1534.95	679.25
1535.47	676.5
1535.98	677.0
1536.5	677.5
1537.01	679.0
1537.53	676.75
1538.04	676.5
1538.56	679.5
1539.07	680.5
1539.59	679.75
1540.1	681.25
1540.62	679.0
1541.13	680.75
1541.65	676.0
1542.16	681.0
1542.68	676.5
1543.19	677.25
1543.71	675.75
1544.22	676.0
1544.73	681.75
1545.25	677.75
1545.76	678.5
1546.28	679.0
1546.79	679.5
1547.31	678.5
1547.82	680.0
1548.33	678.25
1548.85	685.5
1549.36	681.75
1549.87	677.0
1550.39	677.25
1550.9	678.5
1551.42	676.75
1551.929	679.75
1552.44	676.5
1552.96	678.0
1553.47	679.0
1553.98	679.5
1554.5	679.5
1555.01	681.5
1555.52	675.5
1556.04	679.25
1556.55	680.25
1557.06	679.75
1557.57	680.25
1558.09	679.75
1558.6	681.5
1559.11	677.0
1559.63	681.0
1560.14	676.75
1560.65	678.5
1561.16	678.25
1561.68	683.0
1562.19	681.5
1562.7	681.5
1563.21	681.25
1563.73	676.5
1564.24	679.25
1564.75	684.25
1565.26	682.0
1565.77	684.25
1566.29	685.25
1566.8	688.5
1567.31	681.75
1567.82	688.25
1568.33	683.75
1568.85	687.25
1569.36	685.25
1569.87	682.5
1570.38	679.25
1570.89	680.25
1571.4	682.75
1571.91	680.75
1572.43	676.75
1572.94	676.5
1573.45	677.75
1573.96	679.5
1574.47	677.5
1574.98	680.5
1575.49	677.75
1576	682.25
1576.52	675.75
1577.03	677.75
1577.54	677.5
1578.05	676.75
1578.56	674.75
1579.07	678.25
1579.58	679.0
1580.09	681.25
1580.6	679.5
1581.11	676.75
1581.62	678.0
1582.13	680.75
1582.64	674.0
1583.15	679.0
1583.66	679.75
1584.17	680.75
1584.68	678.25
1585.19	676.75
1585.7	676.25
1586.21	680.5
1586.72	680.0
1587.23	674.75
1587.74	679.5
1588.25	677.0
1588.76	683.75
1589.27	676.0
1589.78	677.5
1590.29	674.0
1590.8	683.0
1591.31	679.0
1591.82	678.25
1592.33	672.75