File: Version_on_OGprivaterepo/Data/Raman/KL_SWRZ_060624/Spectra/14 KL0919-005-A-meltfilm_CRR_DiadFit.txt
1042.41	708.25
1042.98	703.5
1043.55	705.5
1044.11	710.5
1044.68	706.0
1045.25	700.5
1045.81	699.0
1046.38	698.5
1046.94	699.75
1047.51	697.5
1048.08	691.0
1048.64	694.0
1049.21	695.25
1049.77	694.75
1050.34	694.0
1050.91	692.0
1051.47	690.25
1052.04	690.0
1052.6	692.5
1053.17	690.5
1053.73	687.25
1054.3	688.5
1054.86	685.25
1055.43	688.75
1055.99	693.5
1056.56	687.25
1057.12	686.75
1057.69	686.25
1058.25	688.5
1058.82	688.25
1059.38	684.5
1059.95	687.25
1060.51	685.0
1061.08	686.5
1061.64	681.25
1062.21	686.75
1062.77	685.25
1063.34	686.25
1063.9	684.0
1064.46	685.25
1065.03	687.25
1065.59	683.0
1066.16	688.0
1066.72	684.5
1067.29	682.25
1067.85	684.5
1068.41	684.0
1068.98	682.75
1069.54	680.75
1070.1	692.75
1070.67	680.75
1071.23	683.5
1071.8	681.25
1072.36	681.0
1072.92	682.0
1073.49	686.25
1074.05	680.5
1074.61	683.75
1075.18	685.5
1075.74	689.0
1076.3	681.75
1076.86	681.75
1077.43	681.75
1077.99	682.5
1078.55	685.25
1079.12	686.0
1079.68	682.25
1080.24	682.25
1080.8	681.5
1081.37	680.0
1081.93	682.25
1082.49	684.5
1083.05	680.75
1083.62	683.5
1084.18	680.25
1084.74	682.75
1085.3	680.25
1085.87	681.25
1086.43	682.5
1086.99	682.25
1087.55	684.75
1088.11	686.5
1088.67	680.0
1089.24	682.5
1089.8	680.25
1090.36	681.5
1090.92	681.0
1091.48	684.0
1092.04	683.0
1092.61	681.75
1093.17	685.25
1093.73	679.0
1094.29	683.25
1094.85	683.0
1095.41	687.0
1095.97	682.75
1096.53	683.0
1097.1	688.25
1097.66	679.75
1098.22	682.0
1098.78	682.75
1099.34	680.5
1099.9	681.25
1100.46	679.5
1101.02	680.25
1101.58	682.25
1102.14	681.5
1102.7	681.5
1103.26	678.75
1103.82	683.25
1104.38	678.5
1104.94	678.25
1105.5	678.25
1106.06	682.5
1106.62	677.75
1107.18	680.25
1107.74	679.25
1108.3	680.75
1108.86	679.0
1109.42	679.0
1109.98	681.0
1110.54	686.25
1111.1	684.0
1111.66	681.25
1112.22	682.0
1112.78	682.25
1113.34	681.0
1113.9	681.0
1114.46	679.25
1115.02	680.25
1115.57	684.5
1116.13	678.75
1116.69	681.25
1117.25	683.75
1117.81	680.25
1118.37	677.5
1118.93	682.25
1119.49	679.75
1120.04	680.5
1120.603	679.75
1121.16	680.5
1121.72	681.25
1122.28	680.25
1122.84	680.25
1123.39	678.25
1123.95	687.5
1124.51	681.5
1125.07	675.75
1125.63	676.75
1126.19	682.25
1126.74	683.25
1127.3	680.75
1127.86	678.75
1128.42	679.25
1128.97	679.0
1129.53	681.0
1130.09	681.75
1130.65	679.5
1131.2	683.5
1131.76	685.0
1132.32	683.5
1132.88	680.25
1133.43	680.25
1133.99	679.0
1134.55	678.75
1135.1	678.75
1135.66	680.5
1136.22	678.25
1136.78	681.75
1137.33	680.0
1137.89	678.5
1138.45	681.0
1139	683.0
1139.56	681.75
1140.12	682.5
1140.67	679.25
1141.23	680.25
1141.78	680.5
1142.34	679.75
1142.9	683.25
1143.45	681.5
1144.01	678.75
1144.57	677.5
1145.12	681.25
1145.68	679.75
1146.23	680.75
1146.79	678.0
1147.35	679.5
1147.9	682.0
1148.46	681.75
1149.01	680.5
1149.57	680.0
1150.12	682.75
1150.68	681.75
1151.23	681.5
1151.79	680.75
1152.34	681.5
1152.9	681.5
1153.46	680.0
1154.01	680.5
1154.57	681.25
1155.12	682.75
1155.68	681.25
1156.23	686.0
1156.78	680.25
1157.34	683.5
1157.89	679.0
1158.45	682.0
1159	682.25
1159.56	678.0
1160.11	680.0
1160.67	679.0
1161.22	681.5
1161.78	682.75
1162.33	683.75
1162.88	684.5
1163.44	681.5
1163.99	684.25
1164.55	681.75
1165.1	680.75
1165.65	675.0
1166.21	681.0
1166.76	682.25
1167.32	683.0
1167.87	681.75
1168.42	683.0
1168.98	683.25
1169.53	680.5
1170.08	680.5
1170.64	682.25
1171.19	683.75
1171.74	680.25
1172.3	683.5
1172.85	681.5
1173.4	683.25
1173.96	683.25
1174.51	685.75
1175.06	683.25
1175.61	682.25
1176.17	684.25
1176.72	680.0
1177.27	682.5
1177.83	682.0
1178.38	685.75
1178.93	682.0
1179.48	684.5
1180.04	684.5
1180.59	683.25
1181.14	686.0
1181.69	680.75
1182.24	685.25
1182.8	679.5
1183.35	679.5
1183.9	682.25
1184.45	681.75
1185	680.75
1185.56	685.25
1186.11	684.0
1186.66	681.0
1187.21	685.75
1187.76	686.0
1188.31	681.5
1188.87	681.75
1189.42	678.25
1189.97	680.5
1190.52	683.5
1191.07	683.75
1191.62	683.0
1192.17	680.0
1192.72	682.0
1193.28	707.5
1193.83	682.0
1194.38	684.0
1194.93	683.5
1195.48	680.5
1196.03	682.25
1196.58	685.0
1197.13	678.0
1197.68	680.25
1198.23	685.25
1198.78	682.75
1199.33	682.5
1199.88	685.5
1200.43	680.25
1200.98	681.75
1201.53	685.0
1202.09	684.5
1202.64	682.0
1203.19	682.5
1203.74	686.5
1204.29	682.75
1204.83	680.25
1205.38	682.75
1205.93	683.75
1206.48	681.25
1207.03	684.25
1207.58	680.5
1208.13	679.0
1208.68	683.0
1209.23	684.25
1209.78	684.75
1210.33	679.25
1210.88	684.5
1211.43	681.5
1211.98	682.5
1212.53	685.0
1213.08	686.0
1213.62	682.5
1214.17	684.0
1214.72	685.5
1215.27	685.25
1215.82	679.75
1216.37	682.75
1216.92	682.5
1217.47	684.75
1218.01	682.25
1218.56	681.0
1219.11	684.0
1219.66	684.25
1220.21	687.25
1220.76	681.75
1221.3	686.75
1221.85	684.25
1222.4	680.5
1222.95	681.5
1223.5	682.75
1224.04	682.5
1224.59	683.0
1225.14	681.0
1225.69	683.5
1226.23	683.0
1226.78	685.0
1227.33	681.5
1227.88	684.75
1228.42	687.0
1228.97	688.0
1229.52	684.5
1230.07	681.75
1230.61	684.25
1231.16	679.5
1231.71	684.25
1232.26	682.0
1232.8	686.25
1233.35	682.0
1233.9	685.0
1234.44	685.5
1234.99	682.5
1235.54	685.0
1236.08	681.0
1236.63	682.0
1237.18	683.0
1237.72	683.25
1238.27	686.75
1238.81	681.25
1239.36	681.25
1239.91	683.0
1240.45	685.5
1241	687.25
1241.55	686.0
1242.09	682.75
1242.64	683.5
1243.18	683.25
1243.73	681.75
1244.28	682.75
1244.82	686.0
1245.37	688.5
1245.91	685.25
1246.46	684.25
1247	686.75
1247.55	681.5
1248.09	688.75
1248.64	685.5
1249.18	688.0
1249.73	686.0
1250.27	687.25
1250.82	690.0
1251.36	689.5
1251.91	685.5
1252.45	687.0
1253	684.25
1253.54	686.75
1254.09	686.75
1254.63	683.75
1255.18	688.5
1255.72	686.0
1256.27	684.5
1256.81	688.0
1257.36	685.25
1257.9	681.25
1258.45	686.5
1258.99	687.75
1259.53	686.25
1260.08	701.0
1260.62	685.25
1261.17	687.25
1261.71	687.5
1262.25	685.5
1262.8	688.25
1263.34	686.0
1263.89	689.0
1264.43	695.75
1264.97	698.0
1265.52	697.25
1266.06	695.0
1266.6	692.5
1267.15	686.75
1267.69	691.5
1268.23	687.25
1268.78	689.25
1269.32	687.0
1269.86	685.75
1270.41	687.25
1270.95	689.0
1271.49	684.0
1272.03	685.25
1272.58	687.25
1273.12	687.5
1273.66	685.5
1274.21	688.5
1274.75	689.0
1275.29	689.0
1275.83	685.75
1276.38	690.75
1276.92	686.75
1277.46	686.75
1278	686.5
1278.54	690.0
1279.09	687.0
1279.63	687.75
1280.17	688.75
1280.71	691.0
1281.25	693.5
1281.8	689.0
1282.34	692.5
1282.88	695.25
1283.42	705.0
1283.96	715.0
1284.51	764.0
1285.05	860.25
1285.59	912.25
1286.13	821.75
1286.67	733.5
1287.21	704.5
1287.75	696.0
1288.29	690.5
1288.84	689.5
1289.38	688.5
1289.92	688.5
1290.46	691.75
1291	687.25
1291.54	686.75
1292.08	689.5
1292.62	690.5
1293.16	683.25
1293.7	686.25
1294.24	689.25
1294.78	684.75
1295.33	683.75
1295.87	688.25
1296.41	689.25
1296.95	686.25
1297.49	690.0
1298.03	684.25
1298.57	689.75
1299.11	685.25
1299.65	688.25
1300.19	685.5
1300.73	684.5
1301.27	688.75
1301.81	689.5
1302.35	685.0
1302.89	689.25
1303.43	686.5
1303.97	688.5
1304.5	684.25
1305.04	688.5
1305.58	687.0
1306.12	687.25
1306.66	689.25
1307.2	685.0
1307.74	690.5
1308.28	690.75
1308.82	687.5
1309.36	686.25
1309.9	685.0
1310.44	687.75
1310.97	684.75
1311.51	686.5
1312.05	685.0
1312.59	687.0
1313.13	687.75
1313.67	689.5
1314.21	685.25
1314.74	688.0
1315.28	686.25
1315.82	687.75
1316.36	685.0
1316.9	687.75
1317.44	689.75
1317.97	688.0
1318.51	687.75
1319.05	685.5
1319.59	687.25
1320.13	687.5
1320.66	684.0
1321.2	686.0
1321.74	687.0
1322.28	686.75
1322.81	686.5
1323.35	682.75
1323.89	688.0
1324.43	688.0
1324.96	689.75
1325.5	685.0
1326.04	684.75
1326.58	683.75
1327.11	686.0
1327.65	687.25
1328.19	688.0
1328.72	687.0
1329.26	687.0
1329.8	685.0
1330.34	687.0
1330.87	686.0
1331.41	687.0
1331.95	688.75
1332.48	688.5
1333.02	688.0
1333.56	687.25
1334.09	687.75
1334.63	688.75
1335.16	683.25
1335.7	685.0
1336.24	687.0
1336.77	686.25
1337.31	690.0
1337.85	687.75
1338.38	688.5
1338.92	686.75
1339.45	685.25
1339.99	686.25
1340.52	687.0
1341.06	690.0
1341.6	686.25
1342.13	684.75
1342.67	685.75
1343.2	687.75
1343.74	689.25
1344.27	688.5
1344.81	684.5
1345.34	688.0
1345.88	687.5
1346.41	688.5
1346.95	684.5
1347.48	689.0
1348.02	690.5
1348.55	687.5
1349.09	687.0
1349.62	692.0
1350.16	691.0
1350.69	688.5
1351.23	685.75
1351.76	692.25
1352.3	687.25
1352.83	684.75
1353.37	690.0
1353.9	688.5
1354.43	688.5
1354.97	689.75
1355.5	689.75
1356.04	689.0
1356.57	686.0
1357.11	686.0
1357.64	685.5
1358.17	688.25
1358.71	686.0
1359.24	691.25
1359.77	688.25
1360.31	687.75
1360.84	690.5
1361.38	689.75
1361.91	690.25
1362.44	691.25
1362.98	688.25
1363.51	687.75
1364.04	687.25
1364.58	688.75
1365.11	689.5
1365.64	690.0
1366.18	690.0
1366.71	691.5
1367.24	690.75
1367.77	691.0
1368.31	688.5
1368.84	691.5
1369.37	686.5
1369.91	686.25
1370.44	696.5
1370.97	695.75
1371.5	687.0
1372.04	688.25
1372.57	687.25
1373.1	690.0
1373.63	688.75
1374.17	692.5
1374.7	690.75
1375.23	687.0
1375.76	686.75
1376.29	692.0
1376.83	690.5
1377.36	688.0
1377.89	693.0
1378.42	689.25
1378.95	692.75
1379.48	687.0
1380.02	688.75
1380.55	688.75
1381.08	686.0
1381.61	688.75
1382.14	692.75
1382.67	692.5
1383.21	693.25
1383.74	692.25
1384.27	692.75
1384.8	690.25
1385.33	694.75
1385.86	696.0
1386.39	698.25
1386.92	709.75
1387.45	726.0
1387.98	792.75
1388.51	968.75
1389.05	1106.25
1389.58	898.5
1390.11	743.25
1390.64	711.5
1391.17	698.0
1391.7	700.0
1392.23	693.25
1392.76	693.75
1393.29	692.5
1393.82	689.25
1394.35	690.0
1394.88	690.75
1395.41	694.0
1395.94	694.0
1396.47	692.5
1397	690.0
1397.53	691.25
1398.06	693.75
1398.59	687.5
1399.12	687.75
1399.65	693.5
1400.18	690.5
1400.71	687.75
1401.24	691.25
1401.77	688.0
1402.29	689.5
1402.82	685.25
1403.35	687.25
1403.88	691.5
1404.41	690.5
1404.94	691.0
1405.47	690.25
1406	692.0
1406.53	693.75
1407.06	688.25
1407.59	689.0
1408.11	691.0
1408.64	693.75
1409.17	700.25
1409.7	706.0
1410.23	717.0
1410.76	711.75
1411.28	701.5
1411.81	698.0
1412.34	691.0
1412.87	690.75
1413.4	685.0
1413.93	688.5
1414.45	694.0
1414.98	692.25
1415.51	702.0
1416.04	691.25
1416.57	688.25
1417.09	692.0
1417.62	693.25
1418.15	688.5
1418.68	691.25
1419.2	689.75
1419.73	691.25
1420.26	693.0
1420.79	687.0
1421.31	688.5
1421.84	689.25
1422.37	685.0
1422.89	692.5
1423.42	691.25
1423.95	691.0
1424.48	692.0
1425	688.5
1425.53	687.75
1426.06	686.25
1426.58	689.25
1427.11	689.25
1427.64	689.0
1428.16	689.75
1428.69	688.25
1429.22	688.0
1429.74	691.25
1430.27	688.75
1430.8	691.25
1431.32	690.75
1431.85	689.25
1432.37	690.0
1432.9	689.75
1433.43	688.5
1433.95	689.5
1434.48	693.75
1435	686.5
1435.53	684.75
1436.06	687.0
1436.58	691.75
1437.11	690.25
1437.63	689.25
1438.16	687.5
1438.68	688.75
1439.21	687.5
1439.73	687.0
1440.26	686.75
1440.78	688.0
1441.31	690.0
1441.84	694.5
1442.36	692.0
1442.89	686.25
1443.41	689.75
1443.94	688.5
1444.46	687.0
1444.99	690.75
1445.51	689.75
1446.03	687.25
1446.56	691.0
1447.08	689.0
1447.61	685.75
1448.13	687.25
1448.66	689.5
1449.18	689.75
1449.71	691.0
1450.23	690.0
1450.75	690.75
1451.28	692.0
1451.8	690.25
1452.33	688.5
1452.85	688.75
1453.37	689.5
1453.9	689.25
1454.42	692.25
1454.95	691.0
1455.47	684.5
1455.99	688.5
1456.52	689.5
1457.04	688.25
1457.56	690.75
1458.09	687.0
1458.61	695.25
1459.13	689.5
1459.66	690.5
1460.18	692.75
1460.7	691.5
1461.23	691.0
1461.75	686.75
1462.27	689.0
1462.8	698.5
1463.84	711.25
1464.36	689.25
1464.89	690.5
1465.41	683.0
1465.93	687.25
1466.46	690.75
1466.978	688.5
1467.5	688.25
1468.02	690.5
1468.55	686.0
1469.07	695.0
1469.59	687.25
1470.11	688.0
1470.63	694.25
1471.16	688.75
1471.68	690.5
1472.2	688.5
1472.72	692.25
1473.24	688.0
1473.77	688.75
1474.29	685.0
1474.81	691.5
1475.33	688.5
1475.85	690.5
1476.37	686.0
1476.9	690.5
1477.42	689.5
1477.94	692.5
1478.46	686.5
1478.98	689.75
1479.5	691.0
1480.02	690.0
1480.54	689.5
1481.07	691.0
1481.59	691.25
1482.11	693.25
1482.63	690.5
1483.15	687.0
1483.67	689.0
1484.19	687.0
1484.71	686.0
1485.23	687.0
1485.75	688.75
1486.27	686.5
1486.79	688.25
1487.31	693.5
1487.83	690.0
1488.35	689.75
1488.87	690.75
1489.39	687.5
1489.91	687.25
1490.43	685.5
1490.95	689.0
1491.47	688.75
1491.99	688.0
1492.51	688.5
1493.03	688.0
1493.55	690.0
1494.07	684.5
1494.59	688.5
1495.11	690.5
1495.63	690.25
1496.15	686.0
1496.67	688.75
1497.19	688.75
1497.71	690.25
1498.23	689.5
1498.75	687.75
1499.27	686.0
1499.79	700.5
1500.3	688.75
1500.82	692.5
1501.34	691.25
1501.86	687.25
1502.38	690.5
1502.9	689.25
1503.42	688.75
1503.94	690.25
1504.45	689.25
1504.97	686.0
1505.49	689.0
1506.01	690.0
1506.53	688.0
1507.05	691.75
1507.56	688.5
1508.08	691.25
1508.6	689.0
1509.12	686.75
1509.64	690.75
1510.16	690.5
1510.67	701.75
1511.19	688.0
1511.71	690.25
1512.23	689.0
1512.74	689.75
1513.26	692.0
1513.78	690.5
1514.3	691.25
1514.81	692.25
1515.33	688.0
1515.85	691.5
1516.37	692.5
1516.88	688.5
1517.4	691.0
1517.92	687.5
1518.44	690.5
1518.95	685.5
1519.47	689.0
1519.99	688.75
1520.5	691.0
1521.02	693.0
1521.54	691.75
1522.05	690.75
1522.57	690.25
1523.09	692.0
1523.6	692.25
1524.12	692.0
1524.64	689.5
1525.15	693.75
1525.67	692.25
1526.19	720.0
1526.7	717.75
1527.22	694.25
1527.73	692.25
1528.25	689.0
1528.77	693.5
1529.28	690.75
1529.8	687.75
1530.31	690.75
1530.83	688.5
1531.34	693.5
1531.86	690.5
1532.38	691.75
1532.89	688.0
1533.41	689.0
1533.92	689.25
1534.44	690.0
1534.95	695.5
1535.47	690.5
1535.98	690.25
1536.5	689.0
1537.01	689.5
1537.53	692.5
1538.04	689.75
1538.56	689.25
1539.07	686.75
1539.59	693.75
1540.1	691.0
1540.62	687.75
1541.13	688.25
1541.65	691.0
1542.16	688.0
1542.68	691.25
1543.19	690.0
1543.71	693.75
1544.22	686.5
1544.73	693.0
1545.25	694.75
1545.76	692.5
1546.28	695.0
1546.79	689.25
1547.31	691.0
1547.82	690.5
1548.33	694.25
1548.85	692.5
1549.36	692.75
1549.87	692.25
1550.39	690.75
1550.9	695.0
1551.42	689.0
1551.929	690.75
1552.44	693.75
1552.96	693.5
1553.47	694.0
1553.98	689.5
1554.5	691.75
1555.01	690.0
1555.52	691.75
1556.04	690.5
1556.55	695.25
1557.06	697.5
1557.57	693.5
1558.09	689.0
1558.6	693.5
1559.11	689.75
1559.63	689.5
1560.14	691.5
1560.65	689.25
1561.16	693.5
1561.68	692.25
1562.19	692.25
1562.7	696.0
1563.21	692.25
1563.73	695.0
1564.24	692.0
1564.75	692.75
1565.26	692.5
1565.77	700.25
1566.29	695.0
1566.8	694.75
1567.31	694.25
1567.82	697.5
1568.33	698.0
1568.85	690.75
1569.36	700.0
1569.87	694.75
1570.38	696.25
1570.89	695.5
1571.4	692.25
1571.91	690.25
1572.43	691.0
1572.94	687.25
1573.45	693.25
1573.96	695.5
1574.47	692.0
1574.98	693.25
1575.49	689.75
1576	690.5
1576.52	691.0
1577.03	691.0
1577.54	690.75
1578.05	694.5
1578.56	690.5
1579.07	690.5
1579.58	693.5
1580.09	689.75
1580.6	693.5
1581.11	692.75
1581.62	689.75
1582.13	693.75
1582.64	692.5
1583.15	695.25
1583.66	695.5
1584.17	692.5
1584.68	692.25
1585.19	693.0
1585.7	694.75
1586.21	694.0
1586.72	690.75
1587.23	691.75
1587.74	691.0
1588.25	691.5
1588.76	694.75
1589.27	691.75
1589.78	691.0
1590.29	692.25
1590.8	695.75
1591.31	693.0
1591.82	693.0
1592.33	689.75