File: Version_on_OGprivaterepo/Data/Raman/KL_SWRZ_060624/Spectra/40 KL0919-010-C-meltfilm_CRR_DiadFit.txt
1042.41	718.0
1042.98	714.75
1043.55	709.25
1044.11	711.5
1044.68	712.5
1045.25	707.5
1045.81	703.0
1046.38	702.5
1046.94	702.0
1047.51	700.0
1048.08	696.5
1048.64	699.0
1049.21	702.25
1049.77	697.5
1050.34	701.25
1050.91	696.5
1051.47	693.0
1052.04	694.5
1052.6	693.25
1053.17	699.5
1053.73	693.25
1054.3	694.75
1054.86	693.0
1055.43	689.5
1055.99	691.5
1056.56	688.75
1057.12	692.75
1057.69	688.0
1058.25	688.25
1058.82	686.75
1059.38	685.0
1059.95	689.5
1060.51	690.0
1061.08	687.75
1061.64	686.75
1062.21	690.25
1062.77	688.25
1063.34	685.75
1063.9	688.0
1064.46	682.5
1065.03	688.75
1065.59	683.0
1066.16	686.0
1066.72	685.5
1067.29	687.25
1067.85	686.0
1068.41	685.0
1068.98	681.75
1069.54	690.25
1070.1	691.75
1070.67	684.5
1071.23	682.0
1071.8	686.0
1072.36	681.25
1072.92	685.75
1073.49	680.0
1074.05	683.75
1074.61	684.5
1075.18	684.75
1075.74	682.0
1076.3	683.25
1076.86	687.25
1077.43	680.5
1077.99	681.25
1078.55	685.0
1079.12	684.0
1079.68	679.25
1080.24	683.25
1080.8	682.0
1081.37	686.25
1081.93	680.75
1082.49	680.75
1083.05	682.25
1083.62	685.5
1084.18	683.5
1084.74	681.25
1085.3	681.25
1085.87	687.5
1086.43	677.5
1086.99	680.75
1087.55	683.75
1088.11	682.0
1088.67	682.75
1089.24	681.75
1089.8	686.75
1090.36	685.25
1090.92	681.5
1091.48	681.0
1092.04	685.75
1092.61	685.5
1093.17	679.5
1093.73	684.75
1094.29	685.25
1094.85	682.5
1095.41	688.5
1095.97	679.5
1096.53	680.25
1097.1	686.75
1097.66	684.5
1098.22	681.5
1098.78	682.25
1099.34	680.5
1099.9	682.25
1100.46	683.75
1101.02	683.5
1101.58	681.75
1102.14	684.0
1102.7	680.0
1103.26	677.5
1103.82	681.75
1104.38	679.0
1104.94	681.25
1105.5	684.75
1106.06	683.75
1106.62	683.5
1107.18	683.5
1107.74	680.75
1108.3	681.75
1108.86	680.5
1109.42	683.75
1109.98	684.5
1110.54	683.25
1111.1	681.5
1111.66	685.75
1112.22	680.0
1112.78	684.0
1113.34	684.0
1113.9	683.5
1114.46	678.25
1115.02	680.25
1115.57	677.25
1116.13	682.5
1116.69	680.0
1117.25	683.0
1117.81	681.0
1118.37	682.0
1118.93	681.25
1119.49	683.0
1120.04	679.5
1120.603	684.5
1121.16	678.0
1121.72	681.0
1122.28	679.5
1122.84	682.25
1123.39	682.5
1123.95	682.25
1124.51	679.5
1125.07	685.75
1125.63	685.75
1126.19	683.75
1126.74	689.75
1127.3	693.0
1127.86	694.5
1128.42	693.5
1128.97	694.5
1129.53	694.25
1130.09	689.75
1130.65	690.5
1131.2	688.25
1131.76	688.75
1132.32	685.5
1132.88	684.25
1133.43	681.5
1133.99	679.75
1134.55	685.5
1135.1	682.75
1135.66	683.0
1136.22	680.25
1136.78	679.0
1137.33	678.25
1137.89	680.25
1138.45	682.25
1139	681.5
1139.56	676.25
1140.12	680.5
1140.67	679.5
1141.23	683.25
1141.78	679.25
1142.34	680.0
1142.9	679.5
1143.45	681.0
1144.01	681.75
1144.57	681.75
1145.12	681.25
1145.68	679.5
1146.23	680.0
1146.79	679.75
1147.35	682.0
1147.9	684.5
1148.46	683.25
1149.01	678.0
1149.57	681.75
1150.12	681.75
1150.68	683.0
1151.23	682.25
1151.79	681.25
1152.34	681.0
1152.9	678.25
1153.46	679.0
1154.01	684.75
1154.57	675.0
1155.12	682.75
1155.68	682.25
1156.23	680.25
1156.78	681.75
1157.34	681.25
1157.89	684.25
1158.45	684.0
1159	681.75
1159.56	683.75
1160.11	686.5
1160.67	688.0
1161.22	681.0
1161.78	678.75
1162.33	683.0
1162.88	684.25
1163.44	684.75
1163.99	680.0
1164.55	678.75
1165.1	681.75
1165.65	681.75
1166.21	678.0
1166.76	683.5
1167.32	681.0
1167.87	681.5
1168.42	681.5
1168.98	679.25
1169.53	676.5
1170.08	681.0
1170.64	680.75
1171.19	677.75
1171.74	681.5
1172.3	682.75
1172.85	681.75
1173.4	682.25
1173.96	678.75
1174.51	678.5
1175.06	684.25
1175.61	684.0
1176.17	678.5
1176.72	678.75
1177.27	680.75
1177.83	682.5
1178.38	677.0
1178.93	679.25
1179.48	680.0
1180.04	680.5
1180.59	677.75
1181.14	681.0
1181.69	679.25
1182.24	680.5
1182.8	679.25
1183.35	678.75
1183.9	681.25
1184.45	678.25
1185	677.75
1185.56	678.0
1186.11	678.5
1186.66	675.5
1187.21	677.75
1187.76	683.0
1188.31	678.0
1188.87	679.0
1189.42	675.75
1189.97	680.0
1190.52	680.25
1191.07	678.75
1191.62	684.0
1192.17	680.25
1192.72	680.25
1193.28	699.75
1193.83	680.0
1194.38	681.25
1194.93	679.5
1195.48	684.0
1196.03	681.25
1196.58	680.5
1197.13	677.5
1197.68	680.25
1198.23	678.0
1198.78	681.25
1199.33	682.5
1199.88	681.25
1200.43	679.5
1200.98	678.5
1201.53	679.0
1202.09	685.5
1202.64	682.5
1203.19	681.5
1203.74	684.25
1204.29	678.75
1204.83	680.5
1205.38	680.0
1205.93	680.0
1206.48	682.75
1207.03	680.0
1207.58	678.75
1208.13	683.25
1208.68	678.5
1209.23	681.25
1209.78	681.75
1210.33	681.0
1210.88	679.5
1211.43	680.0
1211.98	684.25
1212.53	684.75
1213.08	681.25
1213.62	680.5
1214.17	680.0
1214.72	680.25
1215.27	680.0
1215.82	679.5
1216.37	682.25
1216.92	678.5
1217.47	683.75
1218.01	685.5
1218.56	676.75
1219.11	679.75
1219.66	679.0
1220.21	681.25
1220.76	680.25
1221.3	681.0
1221.85	677.5
1222.4	683.5
1222.95	677.0
1223.5	682.0
1224.04	682.5
1224.59	682.0
1225.14	680.25
1225.69	679.5
1226.23	681.0
1226.78	684.5
1227.33	678.5
1227.88	679.5
1228.42	680.75
1228.97	681.25
1229.52	678.0
1230.07	680.5
1230.61	679.0
1231.16	682.75
1231.71	686.25
1232.26	679.75
1232.8	684.5
1233.35	679.0
1233.9	687.0
1234.44	683.5
1234.99	679.75
1235.54	683.0
1236.08	679.5
1236.63	681.25
1237.18	678.25
1237.72	681.0
1238.27	680.25
1238.81	679.25
1239.36	679.0
1239.91	681.0
1240.45	679.25
1241	684.5
1241.55	678.75
1242.09	679.25
1242.64	679.5
1243.18	683.0
1243.73	678.5
1244.28	681.5
1244.82	679.5
1245.37	682.0
1245.91	678.75
1246.46	678.75
1247	680.75
1247.55	679.25
1248.09	677.75
1248.64	680.0
1249.18	684.0
1249.73	677.5
1250.27	682.75
1250.82	687.25
1251.36	680.0
1251.91	680.0
1252.45	682.0
1253	678.5
1253.54	679.0
1254.09	681.25
1254.63	678.0
1255.18	680.0
1255.72	680.75
1256.27	680.75
1256.81	679.75
1257.36	681.25
1257.9	680.5
1258.45	676.25
1258.99	683.25
1259.53	683.0
1260.08	693.75
1260.62	677.5
1261.17	681.25
1261.71	681.5
1262.25	682.75
1262.8	679.75
1263.34	679.25
1263.89	683.25
1264.43	680.0
1264.97	684.25
1265.52	689.5
1266.06	696.5
1266.6	690.25
1267.15	682.5
1267.69	684.75
1268.23	684.25
1268.78	677.25
1269.32	677.75
1269.86	676.5
1270.41	677.5
1270.95	683.0
1271.49	679.75
1272.03	679.5
1272.58	680.25
1273.12	681.75
1273.66	681.5
1274.21	679.75
1274.75	680.75
1275.29	676.75
1275.83	681.0
1276.38	676.5
1276.92	677.5
1277.46	682.25
1278	677.0
1278.54	675.25
1279.09	677.5
1279.63	679.25
1280.17	683.0
1280.71	679.0
1281.25	679.5
1281.8	682.75
1282.34	681.5
1282.88	685.25
1283.42	682.0
1283.96	685.5
1284.51	688.5
1285.05	698.75
1285.59	740.25
1286.13	883.25
1286.67	846.75
1287.21	725.25
1287.75	692.0
1288.29	689.5
1288.84	685.25
1289.38	687.5
1289.92	680.5
1290.46	680.0
1291	677.25
1291.54	680.25
1292.08	675.75
1292.62	677.25
1293.16	678.0
1293.7	681.0
1294.24	678.75
1294.78	681.0
1295.33	683.0
1295.87	680.75
1296.41	678.5
1296.95	680.25
1297.49	682.5
1298.03	679.25
1298.57	681.5
1299.11	681.25
1299.65	681.0
1300.19	680.0
1300.73	678.25
1301.27	681.5
1301.81	680.0
1302.35	679.25
1302.89	680.25
1303.43	677.5
1303.97	675.0
1304.5	678.25
1305.04	679.5
1305.58	679.5
1306.12	679.25
1306.66	677.25
1307.2	680.75
1307.74	679.25
1308.28	681.5
1308.82	682.75
1309.36	678.75
1309.9	679.25
1310.44	679.5
1310.97	678.0
1311.51	678.75
1312.05	676.75
1312.59	680.75
1313.13	678.0
1313.67	679.25
1314.21	674.5
1314.74	677.75
1315.28	681.0
1315.82	680.5
1316.36	678.0
1316.9	679.75
1317.44	680.5
1317.97	679.25
1318.51	677.75
1319.05	681.25
1319.59	678.5
1320.13	684.0
1320.66	678.0
1321.2	676.0
1321.74	676.0
1322.28	679.0
1322.81	675.0
1323.35	682.0
1323.89	687.0
1324.43	678.75
1324.96	680.0
1325.5	680.75
1326.04	678.75
1326.58	677.5
1327.11	679.0
1327.65	678.0
1328.19	677.75
1328.72	679.75
1329.26	682.25
1329.8	677.5
1330.34	679.0
1330.87	679.5
1331.41	678.75
1331.95	681.75
1332.48	683.0
1333.02	680.25
1333.56	680.0
1334.09	678.75
1334.63	679.25
1335.16	678.25
1335.7	677.25
1336.24	680.0
1336.77	682.5
1337.31	681.0
1337.85	676.0
1338.38	675.5
1338.92	674.75
1339.45	677.75
1339.99	680.25
1340.52	675.5
1341.06	678.0
1341.6	682.5
1342.13	678.0
1342.67	677.75
1343.2	681.0
1343.74	678.5
1344.27	680.25
1344.81	681.25
1345.34	681.25
1345.88	680.5
1346.41	680.25
1346.95	680.0
1347.48	675.25
1348.02	678.0
1348.55	678.75
1349.09	678.25
1349.62	678.0
1350.16	681.0
1350.69	678.75
1351.23	676.75
1351.76	684.0
1352.3	679.25
1352.83	679.25
1353.37	676.5
1353.9	682.25
1354.43	678.75
1354.97	680.0
1355.5	680.0
1356.04	677.5
1356.57	678.5
1357.11	678.5
1357.64	679.0
1358.17	678.75
1358.71	684.0
1359.24	682.0
1359.77	680.5
1360.31	676.5
1360.84	681.25
1361.38	680.25
1361.91	682.25
1362.44	677.0
1362.98	678.75
1363.51	682.25
1364.04	679.0
1364.58	678.25
1365.11	679.25
1365.64	679.25
1366.18	679.75
1366.71	679.25
1367.24	677.0
1367.77	681.75
1368.31	678.0
1368.84	681.75
1369.37	677.75
1369.91	678.75
1370.44	681.75
1370.97	687.25
1371.5	683.0
1372.04	675.0
1372.57	679.25
1373.1	681.0
1373.63	678.75
1374.17	681.25
1374.7	678.75
1375.23	682.0
1375.76	679.5
1376.29	676.75
1376.83	681.0
1377.36	678.5
1377.89	679.0
1378.42	679.25
1378.95	680.5
1379.48	678.5
1380.02	677.5
1380.55	678.5
1381.08	681.75
1381.61	678.0
1382.14	678.5
1382.67	679.25
1383.21	684.25
1383.74	678.5
1384.27	681.0
1384.8	679.0
1385.33	682.5
1385.86	680.5
1386.39	683.0
1386.92	684.75
1387.45	685.0
1387.98	694.75
1388.51	721.0
1389.05	895.0
1389.58	1066.0
1390.11	787.25
1390.64	706.0
1391.17	689.5
1391.7	682.75
1392.23	680.25
1392.76	681.75
1393.29	678.75
1393.82	681.75
1394.35	678.5
1394.88	680.0
1395.41	681.0
1395.94	678.75
1396.47	677.75
1397	673.0
1397.53	676.5
1398.06	678.0
1398.59	676.75
1399.12	677.75
1399.65	680.0
1400.18	678.75
1400.71	680.75
1401.24	679.0
1401.77	679.5
1402.29	674.75
1402.82	677.25
1403.35	681.75
1403.88	679.25
1404.41	683.0
1404.94	682.25
1405.47	682.75
1406	676.25
1406.53	679.0
1407.06	680.25
1407.59	679.75
1408.11	678.25
1408.64	676.75
1409.17	677.25
1409.7	683.75
1410.23	699.25
1410.76	716.0
1411.28	699.25
1411.81	690.25
1412.34	684.0
1412.87	682.5
1413.4	678.75
1413.93	678.0
1414.45	679.0
1414.98	679.0
1415.51	690.75
1416.04	680.75
1416.57	676.25
1417.09	678.0
1417.62	681.0
1418.15	678.25
1418.68	680.25
1419.2	681.75
1419.73	677.75
1420.26	678.0
1420.79	680.25
1421.31	677.5
1421.84	680.5
1422.37	678.25
1422.89	680.0
1423.42	676.25
1423.95	676.75
1424.48	681.5
1425	677.0
1425.53	677.5
1426.06	674.0
1426.58	682.75
1427.11	678.75
1427.64	675.25
1428.16	678.75
1428.69	681.0
1429.22	682.25
1429.74	681.5
1430.27	682.0
1430.8	676.25
1431.32	678.75
1431.85	676.5
1432.37	677.5
1432.9	676.0
1433.43	679.75
1433.95	677.25
1434.48	678.5
1435	680.0
1435.53	675.75
1436.06	679.0
1436.58	682.5
1437.11	678.25
1437.63	678.0
1438.16	679.25
1438.68	678.25
1439.21	679.5
1439.73	678.0
1440.26	681.25
1440.78	677.75
1441.31	679.5
1441.84	678.75
1442.36	677.5
1442.89	682.25
1443.41	679.75
1443.94	676.25
1444.46	678.25
1444.99	676.0
1445.51	680.5
1446.03	677.25
1446.56	675.5
1447.08	679.25
1447.61	676.5
1448.13	680.75
1448.66	680.25
1449.18	679.0
1449.71	676.75
1450.23	679.75
1450.75	678.5
1451.28	678.75
1451.8	673.75
1452.33	677.25
1452.85	679.75
1453.37	680.0
1453.9	680.25
1454.42	680.75
1454.95	679.0
1455.47	678.75
1455.99	681.25
1456.52	674.75
1457.04	679.75
1457.56	674.5
1458.09	677.0
1458.61	678.75
1459.13	677.75
1459.66	675.25
1460.18	679.0
1460.7	680.0
1461.23	676.25
1461.75	679.0
1462.27	678.25
1462.8	687.25
1464.36	679.25
1464.89	677.75
1465.41	675.25
1465.93	679.5
1466.46	675.25
1466.978	681.25
1467.5	677.0
1468.02	678.25
1468.55	677.25
1469.07	677.25
1469.59	678.75
1470.11	681.0
1470.63	679.0
1471.16	678.0
1471.68	680.25
1472.2	684.75
1472.72	676.75
1473.24	678.5
1473.77	677.5
1474.29	677.5
1474.81	677.75
1475.33	681.5
1475.85	676.75
1476.37	682.75
1476.9	680.25
1477.42	681.25
1477.94	676.25
1478.46	680.75
1478.98	677.0
1479.5	678.25
1480.02	680.0
1480.54	679.5
1481.07	677.5
1481.59	679.0
1482.11	679.5
1482.63	682.75
1483.15	674.5
1483.67	675.25
1484.19	677.0
1484.71	678.75
1485.23	680.75
1485.75	679.75
1486.27	677.75
1486.79	679.0
1487.31	681.5
1487.83	679.75
1488.35	675.5
1488.87	677.0
1489.39	674.75
1489.91	675.75
1490.43	677.0
1490.95	678.5
1491.47	676.25
1491.99	676.0
1492.51	674.75
1493.03	678.5
1493.55	679.0
1494.07	679.25
1494.59	675.75
1495.11	679.0
1495.63	677.0
1496.15	677.0
1496.67	678.0
1497.19	675.75
1497.71	680.0
1498.23	677.0
1498.75	678.25
1499.27	676.5
1499.79	685.25
1500.3	678.0
1500.82	676.5
1501.34	674.25
1501.86	678.0
1502.38	679.5
1502.9	678.75
1503.42	674.25
1503.94	677.25
1504.45	678.25
1504.97	681.75
1505.49	677.25
1506.01	677.75
1506.53	679.5
1507.05	678.25
1507.56	673.5
1508.08	680.0
1508.6	675.25
1509.12	678.75
1509.64	677.25
1510.16	678.25
1510.67	690.25
1511.19	675.5
1511.71	680.0
1512.23	680.25
1512.74	676.25
1513.26	676.0
1513.78	675.0
1514.3	677.0
1514.81	678.75
1515.33	677.25
1515.85	677.75
1516.37	677.5
1516.88	677.0
1517.4	677.0
1517.92	674.25
1518.44	674.75
1518.95	679.0
1519.47	675.5
1519.99	682.0
1520.5	678.75
1521.02	678.0
1521.54	678.5
1522.05	675.75
1522.57	677.0
1523.09	678.5
1523.6	679.25
1524.12	677.25
1524.64	680.0
1525.15	680.75
1525.67	683.5
1526.19	711.75
1526.7	720.25
1527.22	684.0
1527.73	676.75
1528.25	682.5
1528.77	678.75
1529.28	673.5
1529.8	677.75
1530.31	682.0
1530.83	674.5
1531.34	679.75
1531.86	676.25
1532.38	676.25
1532.89	675.25
1533.41	678.5
1533.92	678.0
1534.44	678.25
1534.95	677.25
1535.47	678.75
1535.98	673.75
1536.5	680.75
1537.01	680.25
1537.53	677.5
1538.04	677.0
1538.56	678.0
1539.07	676.25
1539.59	678.75
1540.1	680.75
1540.62	677.5
1541.13	679.0
1541.65	680.25
1542.16	677.25
1542.68	678.75
1543.19	678.5
1543.71	677.75
1544.22	674.25
1544.73	676.75
1545.25	677.5
1545.76	682.25
1546.28	681.75
1546.79	679.5
1547.31	680.5
1547.82	679.25
1548.33	676.5
1548.85	681.0
1549.36	680.0
1549.87	679.0
1550.39	675.25
1550.9	680.75
1551.42	679.0
1551.929	680.5
1552.44	678.25
1552.96	679.0
1553.47	680.75
1553.98	681.5
1554.5	679.5
1555.01	683.75
1555.52	677.25
1556.04	680.5
1556.55	677.25
1557.06	680.25
1557.57	685.5
1558.09	682.5
1558.6	680.0
1559.11	675.0
1559.63	680.75
1560.14	680.75
1560.65	677.75
1561.16	684.25
1561.68	682.5
1562.19	680.25
1562.7	680.25
1563.21	679.75
1563.73	684.5
1564.24	683.25
1564.75	681.0
1565.26	687.0
1565.77	683.75
1566.29	687.5
1566.8	683.5
1567.31	685.5
1567.82	683.0
1568.33	687.0
1568.85	681.75
1569.36	681.0
1569.87	679.75
1570.38	680.75
1570.89	676.75
1571.4	679.0
1571.91	677.25
1572.43	680.75
1572.94	677.0
1573.45	680.5
1573.96	682.5
1574.47	677.75
1574.98	677.25
1575.49	679.5
1576	676.75
1576.52	680.0
1577.03	679.0
1577.54	677.75
1578.05	680.75
1578.56	681.0
1579.07	676.25
1579.58	681.0
1580.09	674.0
1580.6	681.0
1581.11	677.0
1581.62	677.5
1582.13	680.5
1582.64	679.0
1583.15	679.75
1583.66	679.5
1584.17	678.5
1584.68	677.75
1585.19	679.0
1585.7	676.5
1586.21	680.5
1586.72	677.0
1587.23	680.5
1587.74	679.5
1588.25	677.25
1588.76	680.25
1589.27	676.0
1589.78	678.25
1590.29	678.25
1590.8	680.5
1591.31	680.25
1591.82	679.75
1592.33	680.75